Folder: Beyond-Molecular-Structure-ML-for-OPV-Materials-Devices/ml_for_opvs/data/process/OPV_Min

File: Machine Learning OPV Parameters - data_from_min.csv
 ,ref number from paper,reference link,DOI,Donor Molecule,HOMO_D (eV),LUMO_D (eV),Acceptor Molecule,HOMO_A (eV),LUMO_A (eV),D:A ratio (m/m),solvent,total solids conc. (mg/mL),solvent additive,solvent additive conc. (% v/v),active layer thickness (nm),temperature of thermal annealing (leave gap if not annealed),hole contact layer,electron contact layer,hole mobility blend (cm^2 V^-1 s^-1),electron mobility blend,effective mobility,Langevin prefactor,Voc vs ln(I) slope,Voc (V),Jsc (mA cm^-2),FF (%),PCE (%)
1,5,link,10.1002/aenm.201801214,PBDT-TT,-5.23,-3.34,6TIC,-5.45,-3.94,1:1.5,,,,,,,,,,,,,,0.812,19.1,61,9.46
52,5,link,10.1002/aenm.201801214,PBDT-TT,-5.23,-3.34,ITIC,-5.6,-3.86,1:1.5,DCB,25,,,100,,PEDOT:PSS,C60-bissalt,9.28E-05,4.21E-05,,,,0.849,15.8,65,8.72
63,5,link,10.1002/aenm.201801214,PBDT-TT,-5.23,-3.34,IT-M,-5.58,-3.82,1:1.5,DCB,25,,,100,150,PEDOT:PSS,C60-bissalt,4.48E-04,2.60E-04,,,,0.904,16.5,67,9.99
2,6,link,10.1016/j.scib.2018.05.025,J71,-5.44,-3.45,A201,-5.69,-3.93,1:1,CF,,,,,,PEDOT:PSS,Ca,9.56E-04,5.17E-04,,,,0.88,13.15,67.15,9.36
3,7,link,10.1002/aenm.201801582,J52,-5.13,-3.22,BTA13,-5.34,-3.62,,,12,CN,0.5,,150,PEDOT:PSS,Ca,5.86E-04,2.80E-04,,,1.173,1.05,12.7,58.66,7.82
4,7,link,10.1002/aenm.201801582,J52-F,-5.29,-3.38,BTA13,-5.34,-3.62,,,12,CN,0.5,,150,PEDOT:PSS,Ca,3.87E-04,6.15E-05,,,1.282,1.18,11.55,61.34,8.36
5,7,link,10.1002/aenm.201801582,J52-FS,-5.32,-3.39,BTA13,-5.34,-3.62,,,12,CN,0.5,,150,PEDOT:PSS,Ca,1.40E-04,1.73E-05,,,1.419,1.24,6.74,45.96,3.84
6,8,link,10.1039/C7EE00844A,J61,-5.22,-3.21,BT-IC,-5.32,-3.85,1:1,CF,16,,,130,120,PEDOT:PSS,PDINO,6.15E-04,4.95E-04,,,,0.87,16.35,67.1,9.56
7,8,link,10.1039/C7EE00844A,J71,-5.25,-3.18,BT-IC,-5.32,-3.85,1:1.5,CF,16,,,130,120,PEDOT:PSS,PDINO,,,,,,0.9,17.75,65.7,10.46
8,9,link,10.1002/adma.201604155,J51,-5.2,-3.01,IDIC,-5.69,-3.91,1:1,CF,12,,,100,,ZnO,MoOx,3.40E-05,2.50E-04,,,,0.796,12.24,66,6.94
9,9,link,10.1002/adma.201604155,PDBT-T1,-5.36,-3.43,IDIC,-5.69,-3.91,1:1,CF,12,DIO,0.25,100,,ZnO,MoOx,6.30E-05,5.20E-04,,,,0.834,16.98,73.2,10.37
10,9,link,10.1002/adma.201604155,PDCBT,-5.32,-3.3,IDIC,-5.69,-3.91,1:1,CF,12,,,100,,ZnO,MoOx,1.70E-05,1.20E-04,,,,0.814,11.31,64.1,6.28
11,9,link,10.1002/adma.201604155,PTB7-Th,-5.2,-3.56,IDIC,-5.69,-3.91,1:1,CF,12,,,100,,ZnO,MoOx,2.10E-05,1.70E-04,,,,0.806,10.9,56.1,5.24
12,9,link,10.1002/adma.201604155,PTFBDT-BZS,-5.43,-3.58,IDIC,-5.69,-3.91,1:1,CF,12,DIO,0.25,100,,ZnO,MoOx,6.20E-05,9.20E-04,,,,0.905,17.3,70.8,11.03
13,10,link,10.1039/C7TA07049G,J61,-5.32,-3.08,IDT-IC,-5.69,-3.88,1:1,CF,1,,,120,160,PEDOT:PSS,PDINO,4.85E-04,1.60E-04,,,,0.88,13.7,57.3,6.95
81,10,link,10.1039/C7TA07049G,J61,-5.32,-3.08,SJ-IC,-5.61,-3.94,1:1,CF,,,,120,160,PEDOT:PSS,PDINO,3.10E-04,6.29E-04,,,,0.83,16.99,65.95,9.27
14,11,link,10.103/C8TA00764K,J71,-5.4,-3.24,IDTT-BH,-5.24,-3.86,1:1.4,CF,5,,,100,,PEDOT:PSS,PDINO,2.02E-04,1.63E-04,,,,0.9,17.77,69.1,11.05
15,11,link,10.103/C8TA00764K,PBDB-T,-5.33,-2.92,IDTT-BH,-5.24,-3.86,1:0.8,CF,5,,,90,100,PEDOT:PSS,PDINO,1.88E-04,8.88E-04,,,,0.85,16.86,69.2,9.92
16,11,link,10.103/C8TA00764K,PDCBT,-5.31,-3,IDTT-BH,-5.24,-3.86,1:1.2,CF,5,,,120,120,PEDOT:PSS,PDINO,1.82E-04,1.33E-04,,,,0.88,17.15,68.6,10.35
17,11,link,10.103/C8TA00764K,J71,-5.4,-3.24,IDTT-OBH,-5.41,-3.86,1:1,CF,5,,,100,,PEDOT:PSS,PDINO,1.52E-04,4.09E-05,,,,0.92,14.75,61,8.02
18,11,link,10.103/C8TA00764K,PBDB-T,-5.33,-2.92,IDTT-OBH,-5.41,-3.86,1:0.8,CF,5,,,90,110,PEDOT:PSS,PDINO,1.84E-04,9.78E-05,,,,0.87,17.46,72,10.93
19,11,link,10.103/C8TA00764K,PDCBT,-5.31,-3,IDTT-OBH,-5.41,-3.86,1:1.2,CF,5,,,100,120,PEDOT:PSS,PDINO,1.72E-04,8.18E-05,,,,0.91,13.97,64.8,8.24
20,12,link,10.1002/adma.201703080,J52,,,IEICO-4Cl,-5.56,-4.23,1:1.5,CB,10,DIO,1,110,150,PEDOT:PSS,PFN:Br,,,,,,0.7,23.8,60.7,10.10
21,12,link,10.1002/adma.201703080,PBDB-T,,,IEICO-4Cl,-5.56,-4.23,1:1,CB,10,DIO,1,100,150,PEDOT:PSS,PFN:Br,,,,,,0.744,20.8,62.5,9.67
22,12,link,10.1002/adma.201703080,PTB7-Th,,,IEICO-4Cl,-5.56,-4.23,1:1.5,CB,10,DIO,1,110,150,PEDOT:PSS,PFN:Br,,,,,,0.727,22.8,62,10.30
23,13,link,10.1021/acenergylett.8b00627,J52,,,IEICO-4F,-5.1098,-3.3772,1:1.3,CB,24,,,85,130,MoO3,ZnO,1.11E-04,1.35E-04,,,,0.704,20.48,56.9,8.20
24,13,link,10.1021/acenergylett.8b00627,J52,,,i-IEICO-4F,-5.0183,-3.3307,1:1,CB,24,,,85,130,MoO3,ZnO,2.59E-04,3.83E-04,,,,0.849,22.86,67.9,13.18
25,14,link,10.1002/adma.201706124,J71,-5.4,-3.24,ITCPTC,-5.54,-3.45,1:1,CF,,,,110,150,PEDOT:PSS,PDINO,7.13E-04,5.31E-04,,,,0.896,17.52,74.1,11.63
67,14,link,10.1002/adma.201706124,J71,-5.4,-3.24,MeIC,-5.57,-3.92,1:1,CF,,,,110,150,PEDOT:PSS,PDINO,8.38E-04,7.39E-04,,,,0.918,18.41,74.2,12.54
26,15,link,10.1007/s11426-016-0173-y,J40,-5.4,-2.9,ITIC,,,1:1,CF,8,,,,120,PEDOT:PSS,PDINO,3.70E-05,1.44E-04,,,,0.89,12.18,60.13,6.48
27,16,link,10.1002/adma.201601595,J50,-5.13,-3.16,ITIC,-5.48,-3.83,1:2,CF,,,,,150,PEDOT:PSS,PDINO,6.30E-05,2.20E-05,,0.895,,0.71,12.93,53,4.80
28,16,link,10.1002/adma.201601595,J51,-5.26,-3.08,ITIC,-5.48,-3.83,1:2,CF,,,,,150,PEDOT:PSS,PDINO,2.05E-04,8.60E-05,,0.967,,0.82,16.47,69,9.26
29,17,link,10.1021/jacs.6b01744,J52,-5.21,-2.99,ITIC,,,1:1,CF,,,,,100,PEDOT:PSS,PDINO,,,,,,0.73,13.11,57.8,5.51
30,17,link,10.1021/jacs.6b01744,J60,-5.32,-3.08,ITIC,,,1:1,CF,,,,,100,PEDOT:PSS,PDINO,,,,,,0.91,16.33,60.38,8.97
31,17,link,10.1021/jacs.6b01744,J61,-5.32,-3.08,ITIC,,,1:1,CF,,,,,100,PEDOT:PSS,PDINO,,,,,,0.89,17.43,61.48,9.53
32,18,link,10.1021/jacs.6b09110,J61,,,ITIC,-5.54,-3.84,1:1,CF,20,,,120,130,PEDOT:PSS,PDINO,2.07E-04,1.05E-04,,,,0.898,17.97,65.49,10.57
70,18,link,10.1021/jacs.6b09110,J61,,,m-ITIC,-5.52,-3.82,1:1,CF,20,,,120,130,PEDOT:PSS,PDINO,1.54E-04,1.30E-04,,,,0.912,18.31,70.55,11.77
33,19,link,10.1007/s11426-017-9030-9,J61-F,-5.45,-2.91,ITIC,-5.51,-3.83,1:1.5,CF,18,,,100,170,PEDOT:PSS,PDINO,7.40E-05,1.10E-04,,,,0.95,13.12,66.1,8.24
34,20,link,10.1021/acs.macromol.8b01036,J62,-5.31,-3.08,ITIC,-5.48,-3.83,1.5:1,CF,18,,,263,160,PEDOT:PSS,PDINO,1.23E-04,4.95E-04,,,,0.904,16.12,62.36,9.09
35,20,link,10.1021/acs.macromol.8b01036,J63,-5.28,-3.04,ITIC,-5.48,-3.83,1.5:1,CF,18,,,267.5,160,PEDOT:PSS,PDINO,8.18E-05,3.37E-04,,,,0.882,15.72,53.11,7.38
36,20,link,10.1021/acs.macromol.8b01036,J64,-5.33,-3.09,ITIC,-5.48,-3.83,1.5:1,CF,18,,,206.5,160,PEDOT:PSS,PDINO,6.54E-05,3.55E-04,,,,0.908,15.22,54.32,7.51
37,21,link,10.1002/aenm.201700746,J81,-5.43,-2.98,m-ITIC,-5.52,-3.82,1:1,CF,18,,,,160,PEDOT:PSS,PDINO,3.66E-04,4.06E-04,,,,0.95,15.27,73.08,10.60
76,21,link,10.1002/aenm.201700746,J81,-5.43,-2.98,m-ITIC,-5.52,-3.82,1:1,CF,18,,,,160,PEDOT:PSS,PDINO,4.08E-04,4.67E-04,,,,0.96,16.47,69.83,11.05
38,22,link,10.1002/aenm.201700834,PBDT(T)[2F]T,,,ITIC,-5.48,-3.83,5:5,CB,,,,65,160,MoO3,a-ZnO,3.00E-05,1.20E-05,,,,0.94,16.9,62,9.80
39,22,link,10.1002/aenm.201700834,PBDT[2F]T,,,ITIC,-5.48,-3.83,6:4,CB,,,,70,,MoO4,a-ZnO,1.50E-05,1.00E-05,,,,0.94,11.6,53,5.80
40,22,link,10.1002/aenm.201700834,PBDT[2H]T,,,ITIC,-5.48,-3.83,5:5,CB,,,,80,160,MoO5,a-ZnO,5.70E-06,2.20E-05,,,,0.79,7.6,41,2.50
119,22,link,10.1002/aenm.201700834,PBDT(2F)T,,,ITIC,-5.48,-3.83,6:4,CB,,,,,,,,,,,,,0.79,7.6,41,2.50
120,22,link,10.1002/aenm.201700834,PBDT(2H)T,,,ITIC,-5.48,-3.83,5:5,CB,,,,,,,,,,,,,0.96,10.3,53,5.40
121,22,link,10.1002/aenm.201700834,PBDT(T)(2F)T,,,ITIC,-5.48,-3.83,5:5,CB,,,,,,,,,,,,,0.94,16.9,62,9.80
41,23,link,10.1002/adfm.201706517,PBDT-2TC,-5.43,-3.57,ITIC,-5.51,-3.84,1:1,CB,16,,,,120,PEDOT:PSS,bis-C_60,,,,,,0.93,15.3,65.7,9.35
47,23,link,10.1002/adfm.201706517,PBDT-S-2TC,-5.47,-3.58,ITIC,-5.51,-3.84,1:1,CB,16,,,,120,PEDOT:PSS,bis-C_60,,,,,,0.96,16.4,64.3,10.12
42,24,link,10.1021/acs.macromol.6b02733,PBDT-DTN,-5.37,-3.53,ITIC,,,4:6,CF,,DPE,4,90,150,PEDOT:PSS,Calcium,1.44E-03,2.61E-03,,,,0.92,13.8,65,8.30
43,25,link,10.1002/adfm.201706404,PBDT-FBT,-5.14,-3.35,ITIC,-5.48,-3.83,1:1,CB,20,"1,8-diiodooctane",0.5,99,,ZnO,MoO3,5.07E-05,1.47E-05,,,,0.82,13.73,63.8,7.15
44,25,link,10.1002/adfm.201706404,PBDTF-FBT,-5.34,-3.53,ITIC,-5.48,-3.83,1:1,CB,20,"1,8-diiodooctane",0.5,107,,ZnO,MoO3,2.29E-04,1.09E-04,,,,0.9,15.38,66.3,9.17
48,25,link,10.1002/adfm.201706404,PBDTS-FBT,-5.2,-3.4,ITIC,-5.48,-3.83,1:1,CB,20,"1,8-diiodooctane",0.5,104,,ZnO,MoO3,1.08E-04,3.65E-05,,,,0.89,14.63,65.9,8.58
49,25,link,10.1002/adfm.201706404,PBDTSF-FBT,-5.41,-3.6,ITIC,-5.48,-3.83,1:1,CB,20,"1,8-diiodooctane",0.5,109,,ZnO,MoO3,4.70E-04,2.76E-04,,,,1.03,17.09,66.3,11.66
45,26,link,10.1002/adfm.201701491,PBDT–NQx,-5.24,-3.42,ITIC,-5.48,-3.83,1:0.8,CB,20,DIO,2,110,,ZnO,MoO3,1.80E-04,5.60E-05,,,,0.87,16.21,64.6,9.11
46,26,link,10.1002/adfm.201701491,PBDTS–NQx,-5.31,-3.46,ITIC,-5.48,-3.83,1:0.8,CB,20,DIO,2,109,,ZnO,MoO3,2.50E-04,1.30E-04,,,,0.92,17.86,69.8,11.47
50,27,link,10.1002/adma.201703973,PBDTS-TDZ,-5.39,-2.8,ITIC,-5.48,-3.83,1:1,o-xylene,20,,,100,,PEDOT:PSS,MoO3,1.20E-03,7.20E-04,,,,1.1,17.78,65.4,12.80
51,27,link,10.1002/adma.201703973,PBDT-TDZ,-5.35,-2.78,ITIC,-5.48,-3.83,1:1,o-xylene,20,,,,,PEDOT:PSS,MoO3,4.10E-04,2.30E-04,,,,1.02,15.91,58.1,9.43
53,28,link,10.1039/C7TA06476D,PBFZ-OP,-5.33,-3.01,ITIC,-5.6,-3.85,1:1,CF,16,,,,160,ZnO,MoO3,3.25E-04,2.62E-04,,,,0.91,18.7,61.8,10.50
54,29,link,10.1039/C7TA02075A,PSBZ,-5.37,-3.47,ITIC,-5.6,-3.85,1:1,CB,20,,,,140,ZnO,MoO3,1.70E-04,1.16E-03,,,,0.89,19,62,10.50
55,30,link,10.1039/C8TA05800H,J71,-5.4,-3.65,ITIC1,-5.48,-3.86,1:1,CF,14,,,,100,PEDOT:PSS,Zracac,3.10E-04,2.30E-04,,,,0.92,14.94,61.2,8.47
56,30,link,10.1039/C8TA05800H,J71,-5.4,-3.65,ITIC5,-5.48,-3.95,1:1,CF,14,,,,100,PEDOT:PSS,Zracac,6.30E-04,6.90E-04,,,,0.892,18.35,74.7,12.20
57,31,link,10.1002/adma.201800737,PBDT-ODZ,-5.68,-2.89,ITIC-Th,-5.78,-3.74,1:1,CB,20,,,100,,CuSCN,PFN-Br,2.20E-04,4.30E-04,,,,1.08,15.52,60.4,10.12
,31,link,10.1002/adma.201800737,PBDT-ODZ,-5.45,-3.38,ITIC-Th,-5.62,-4.01,1:1,CB,20,CuI,4,100,,CuSCN,PFN-Br,1.10E-03,8.50E-04,,,,1.06,17.1,68.1,12.34
58,32,link,10.1002/adma.201700144,FTAZ,-5.38,-3.17,ITIC-Th,-5.66,-3.93,1:1.5,CF,12,"1,8-diiodooctane",0.25,120,,ZnO,MoOx,2.40E-02,4.50E-03,,,,0.915,15.84,61.26,8.88
59,32,link,10.1002/adma.201700144,FTAZ,-5.38,-3.17,ITIC-Th1,-5.74,-4.01,1:1.5,CF,12,"1,8-diiodooctane",0.25,120,,ZnO,MoOx,2.70E-02,7.60E-03,,,,0.849,19.33,73.73,12.10
60,33,link,10.1039/C7QM00547D,FTAZ,-5.38,-3.17,ITIC-Th2,-5.75,-4.07,1:1.5,CF,12.5,"1,8-diiodooctane",0.25,100,,ZnO,MoOx,1.30E-03,5.10E-04,,,,0.751,17.19,70.07,9.06
61,33,link,10.1039/C7QM00547D,FTAZ,-5.38,-3.17,ITIC-Th3,-5.67,-3.73,1:1.5,CF,12.5,"1,8-diiodooctane",0.25,100,,ZnO,MoOx,2.40E-03,7.20E-04,,,,0.962,16.34,68.33,10.70
62,34,link,10.1002/adma.201700437,J52,-5.21,-2.99,IT-M,-5.56,-3.98,1:1,CB,12,"1,8-diiodooctane",0.5,100,150,PEDOT:PSS,PFN-Br,1.93E-04,4.07E-03,,,,0.843,17.1,65.1,9.40
,34,link,10.1002/adma.201700437,J52,-5.21,-2.99,IEICO,-5.32,-3.95,1:1,CB,12,"1,8-diiodooctane",0.5,100,150,PEDOT:PSS,PFN-Br,1.03E-04,6.38E-04,,,,0.848,15.1,51,6.50
69,34,link,10.1002/adma.201700437,J52,,,m-ITIC,,,,,,,,,,,,,,,,,0.701,17.16,49.73,5.98
64,35,link,10.1021/acs.chemmater.7b03928,J71,-5.4,-3.24,ITVffIC,-5.58,-4.04,1:1.2,CF,,CN,0.5,100,160,PEDOT:PSS,PDINO,2.06E-04,2.15E-04,,,,0.81,20.6,63.18,10.54
65,35,link,10.1021/acs.chemmater.7b03928,J71,-5.4,-3.24,ITVfIC,-5.56,-4.01,1:1.2,CF,,,,100,160,PEDOT:PSS,PDINO,3.62E-04,4.31E-04,,,,0.84,19.73,58.67,9.72
66,35,link,10.1021/acs.chemmater.7b03928,J71,-5.4,-3.24,ITVIC,-5.46,-3.97,1:1.2,CF,,,,100,160,PEDOT:PSS,PDINO,3.66E-04,2.82E-04,,,,0.89,14.47,57.64,7.34
68,36,link,10.1039/C8TA03453B,J71,-5.4,-3.24,MeIC2,-5.56,-3.97,1:1,CF,18,,,,150,PEDOT:PSS,PDIN,4.62E-04,3.70E-04,,,,0.885,16.9,69.4,10.20
71,37,link,10.1002/aenm.201702324,J70,-5.37,-2.91,m-ITIC,-5.52,-3.82,2:3,CF,,,,,150,PEDOT:PSS,PDINO,1.93E-04,8.40E-04,,,,0.92,18.09,69.82,11.62
72,37,link,10.1002/aenm.201702324,J71,-5.4,-3.24,m-ITIC,-5.52,-3.82,2:3,CF,,,,,150,PEDOT:PSS,PDINO,1.09E-04,4.66E-04,,,,0.944,18.09,70.59,12.05
73,37,link,10.1002/aenm.201702324,J72,-5.42,-3.29,m-ITIC,-5.52,-3.82,2:3,CF,,,,,150,PEDOT:PSS,PDINO,4.60E-05,3.98E-04,,,,0.962,16.35,65.03,10.23
74,37,link,10.1002/aenm.201702324,J73,-5.46,-2.92,m-ITIC,-5.52,-3.82,2:3,CF,,,,,150,PEDOT:PSS,PDINO,3.80E-05,3.10E-04,,,,0.974,16.45,66.87,10.71
75,37,link,10.1002/aenm.201702324,J74,-5.56,-3.06,m-ITIC,-5.52,-3.82,2:3,CF,,,,,150,PEDOT:PSS,PDINO,2.40E-05,4.05E-04,,,,0.99,15.89,61.18,9.63
77,38,link,10.1002/adma.201703344,J91,-5.5,-3.02,m-ITIC,,,1:1.5,CF,12,,,100,150,PEDOT:PSS,PDINO,1.02E-04,3.00E-04,,,,0.984,18.03,65.54,11.63
,38,link,10.1002/adma.201703344,J52,-5.17,-2.99,m-ITIC,,,1:1.5,CF,12,,,100,150,PEDOT:PSS,PDINO,2.09E-05,2.38E-04,,,,0.701,17.16,49.73,5.98
78,39,link,10.1039/C7TA11339K,J71,-5.4,-3.24,m-MeIC,-5.54,-3.9,,CF,,,,100,150,PEDOT:PSS,PDINO,2.06E-04,2.52E-04,,,,0.919,18.45,69.2,11.73
79,39,link,10.1039/C7TA11339K,PBDB-T,-5.33,-3.53,m-MeIC,-5.54,-3.9,,CF,,,,100,150,PEDOT:PSS,PDINO,2.18E-04,2.69E-04,,,,0.843,18.16,69.7,10.68
80,39,link,10.1039/C7TA11339K,PTB7-Th,-5.2,-3.6,m-MeIC,-5.54,-3.9,,CF,,chloronaphthalene,0.5,100,,PEDOT:PSS,PDINO,1.36E-04,1.85E-04,,,,0.796,16.52,61.7,8.12
82,40,link,10.1039/C8CC06198J,J61,-5.32,-3.38,TP21,-5.46,-3.61,1:1,CB,20,,,100,140,PEDOT:PSS,Ca,2.50E-04,7.40E-06,,,,1.05,10.92,51,5.81
83,41,link,10.1002/adma.201704713,FTAZ,-5.38,-3.17,IHIC2,-5.69,-3.86,1:1.5,CF,13.5,,,100,,ZnO,MoO3,1.80E-03,2.30E-05,,,,0.775,15.7,61.2,7.45
84,41,link,10.1002/adma.201704713,FTAZ,-5.38,-3.17,IOIC2,-5.41,-3.78,1:1.5,CF,13.5,"1,8‐diiodooctane",0.2,100,,ZnO,MoO3,4.80E-03,6.80E-04,,,,0.9,19.7,69.3,12.30
85,42,link,10.1002/adma.201604241,PBQ-0F,-5.18,-3.48,ITIC,-5.53,-3.94,1:1,THF,6,isopropanol,5,160,100,ZnO,MoO3,7.80E-04,8.20E-04,,,,0.69,16.16,59.91,6.68
86,42,link,10.1002/adma.201604241,PBQ-QF,-5.34,-3.62,ITIC,-5.53,-3.94,1:1,THF,6,isopropanol,5,160,100,ZnO,MoO3,8.60E-04,8.30E-04,,,,0.83,17.16,62.49,8.90
87,42,link,10.1002/adma.201604241,PBQ-4F,-5.49,-3.7,ITIC,-5.53,-3.94,1:1,THF,6,isopropanol,5,160,100,ZnO,MoO3,1.00E-03,1.00E-03,,,,0.95,17.87,66.8,11.34
88,43,link,10.1002/adma.201704837,PBTA-TF,-5.36,-3.42,ITCC,-5.47,-3.76,1:1,CF,8,diiodooctane,0.5,105,100,PEDOT:PSS,PFN-Br,,,,,,1,15.54,67,10.40
89,43,link,10.1002/adma.201704837,PBTA-TF,-5.36,-3.42,IT-M,-5.58,-3.85,1:1,CF,8,diiodooctane,0.5,98,100,PEDOT:PSS,PFN-Br,,,,,,0.97,17.76,71,12.20
90,43,link,10.1002/adma.201704837,PBTA-TF,-5.36,-3.42,IT-4F,-5.66,-4.14,1:1,CF,8,diiodooctane,0.5,96,100,PEDOT:PSS,PFN-Br,,,,,,0.73,20.24,72,10.60
,43,link,10.1002/adma.201704837,PBTA-TF,-5.36,-3.42,IT-M,-5.58,-3.85,1:1,THF,8,isopropanol,1,108,100,PEDOT:PSS,PFN-Br,,,,,,0.96,18.37,67,12.00
,43,link,10.1002/adma.201704837,PBTA-TF,-5.36,-3.42,IT-M,-5.58,-3.85,1:1,o-xylene,12,1-phenylnaphthalene,0.5,112,100,PEDOT:PSS,PFN-Br,,,,,,0.97,18.74,72,13.10
91,44,link,10.1002/adma.201600281,PBDB-T,-5.33,-2.92,ITIC,-5.51,-3.78,1:1,CB,20,diiodooctane,0.5,100,,ZnO,MoO3,2.10E-04,3.13E-04,,,,0.899,16.81,74.2,11.21
,44,link,10.1002/adma.201600281,PBDB-T,-5.33,-2.92,PC17BM,-5.96,-3.98,1:1,DCB,20,diiodooctane,3,100,,ZnO,MoO3,,,,,,0.853,12.8,68.2,7.45
92,45,link,10.1021/jacs.7b02677,PBDB-T-SF,-5.4,-3.6,IT-4F,-5.66,-4.14,1:1,CB,25,diiodooctane,0.5,100,,ZnO,MoO3,3.25E-04,4.32E-04,,,,0.88,20.88,71.3,13.10
,45,link,10.1021/jacs.7b02677,PBDB-T,-5.28,-3.48,ITIC,-5.5,-3.89,1:1,CB,20,diiodooctane,0.5,100,,ZnO,MoO3,2.10E-04,3.13E-04,,,,0.9,17.03,0.721,11.05
93,46,link,10.1021/acsami.5b10211,PCDTBT-C12,-5.23,-3.26,SM1,-5.93,-3.5,1:2,DCB,,,,52,90,PEDOT:PSS,LiF,3.00E-05,1.10E-05,,,,1.04,4.79,56,2.78
94,46,link,10.1021/acsami.5b10211,PCDTBT-C12,-5.23,-3.26,SM2,-5.98,-3.62,1:2,DCB,,,,60,90,PEDOT:PSS,LiF,1.10E-05,9.70E-07,,,,1.11,2.21,30,0.74
95,46,link,10.1021/acsami.5b10211,PCDTBT-C12,-5.23,-3.26,SM3,-5.95,-3.68,1:2,DCB,,,,66,90,PEDOT:PSS,LiF,2.70E-05,4.70E-07,,,,1.09,1.71,30,0.56
96,46,link,10.1021/acsami.5b10211,PCDTBT-C12,-5.23,-3.26,SM4,-5.8,-3.65,1:2,DCB,,,,57,90,PEDOT:PSS,LiF,1.00E-05,1.10E-09,,,,1.24,0.37,28,0.13
97,47,link,10.1002/adma.201606054,PTB7,-5.21,-3.36,SFBRCN,-5.93,-3.86,1:1.2,CB,22,"1,8-diiodooctanae",0.75,100,,ZnO,MoO3,5.50E-05,1.20E-04,,,,0.85,13.85,60.7,7.34
98,47,link,10.1002/adma.201606054,PTB7-Th,-5.27,-3.55,SFBRCN,-5.93,-3.86,1:1.2,CB,22,"1,8-diiodooctanae",0.75,100,,ZnO,MoO3,1.50E-04,2.20E-04,,,,0.9,17.24,64,9.90
99,48,link,10.1002/adma.201700254,PBDB-T,,,ITIC,-5.5,-3.9,1:1,CB,10,"1,8-diiodooctanae",1,110,100,PEDOT:PSS,PFN-Br,,1.28E-04,,,,0.93,17,67,10.60
100,48,link,10.1002/adma.201700254,PBDB-T,,,ITCC,-5.47,-3.76,1:1,CB,10,"1,8-diiodooctanae",1,110,100,PEDOT:PSS,PFN-Br,,6.74E-04,,,,1.01,15.9,71,11.40
101,49,link,10.1002/adma.201602642,PBDTTT-E-T,-5.09,,IEIC,-5.47,-3.9,1:1.5,CB,10,DIO,2,105,100,PEDOT:PSS,PFN-Br,,,,,,0.9,11.7,47,4.90
102,49,link,10.1002/adma.201602642,PBDTTT-E-T,-5.09,,IEICO,-5.32,-3.95,1:1,CB,10,DIO,2,95,100,PEDOT:PSS,PFN-Br,1.50E-03,4.60E-04,,,,0.82,17.7,58,8.40
419,50,link,,PBTT,,,IEICO,,,,,,,,,,,,,,,,,0.86,17.9,61.3,9.50
420,50,link,,PTB7-Th,,,IEICO,,,,,,,,,,,,,,,,,0.91,13.3,60.5,7.30
421,50,link,,PBDTTT-C-T,,,IEICO,,,,,,,,,,,,,,,,,0.89,12.3,59,6.50
422,50,link,,PBDTTT-E-T,,,IEICO,,,,,,,,,,,,,,,,,0.82,17.7,58,8.40
103,51,link,10.1002/adma.201704510,PBDB-T,-5.68,-3.84,NITI,-5.68,-3.84,1:1,CB,10,,,100,,PEDOT:PSS,PNDIT-F3N,7.90E-05,2.10E-05,,,,0.86,17.8,84,9.49
104,52,link,10.1002/adma.201701308,PTB7-Th,-5.2,-3.59,IHIC,-5.45,-3.93,1:1.5,DCB,20,CN,1,100,,ZnO,MoO3,6.80E-04,1.20E-03,,,,0.744,17.1,60.9,9.41
105,53,link,10.1039/c7cc03122j,P3HT,-5.2,-3.2,N3,-5.76,-3.97,1:1.2,o-DCB,,,,60,,PEDOT:PSS,Ca,,2.98E-03,,,,0.87,8.87,60,4.62
106,53,link,10.1039/c7cc03122j,P3HT,-5.2,-3.2,N4,-5.54,-3.67,1:1.2,o-DCB,,,,60,,PEDOT:PSS,Ca,,1.83E-04,,,,0.91,6.69,58,3.52
[...]
416,211,,,PBDB-T,,,FICBF,,,,,,,,,,,,,,,,,0.87,12.71,67,7.41
417,212,,,PTB7-Th,,,BT-SFIC,,,,,,,,,,,,,,,,,0.77,18.46,67,9.12
418,212,,,PTB7-Th,,,BT-FIC,,,,,,,,,,,,,,,,,0.73,21.28,65,9.80
546,212,,,PTB7-Th,,,BT-SFIC,,,,,,,,,,,,,,,,,0.77,18.46,67,9.52
547,212,,,PTB7-Th,,,BT-FIC,,,,,,,,,,,,,,,,,0.73,21.28,65,10.10
423,213,,,PBZ-TS,,,ITIC,,,,,,,,,,,,,,,,,0.93,16.73,52.1,8.08
424,214,,,PBT1-EH,,,IDTCN,,,,,,,,,,,,,,,,,0.93,13.08,70.2,8.54
425,215,,,PBDB-T,,,IDT-T,,,,,,,,,,,,,,,,,0.952,11.21,59.62,6.36
426,215,,,PBDB-T,,,IDT-3MT,,,,,,,,,,,,,,,,,0.95,14.43,61.32,8.40
427,216,,,PBDB-T,,,SiIDT-IC,,,,,,,,,,,,,,,,,0.92,13.53,65.56,8.16
428,216,,,PBDB-T,,,IDIC,,,,,,,,,,,,,,,,,0.81,16.69,65.36,8.83
429,217,,,PBDB-T,,,IDTBOR,,,,,,,,,,,,,,,,,0.89,15.98,54.67,7.74
430,217,,,PBDB-T,,,IDTBSR,,,,,,,,,,,,,,,,,0.95,13.95,52.38,6.95
431,218,,,PBDB-T,,,TTIC,,,,,,,,,,,,,,,,,0.77,22.26,62,10.61
432,218,,,PBDB-T,,,TTIC-M,,,,,,,,,,,,,,,,,0.8,20.51,70,11.48
433,219,,,J52,,,ITIC,,,,,,,,,,,,,,,,,0.803,10.87,43.2,3.78
434,219,,,J52-Cl,,,ITIC,,,,,,,,,,,,,,,,,0.956,17.17,70.2,11.53
435,220,,,PBDB-T,,,IDTT2F,,,,,,,,,,,,,,,,,0.81,18.51,59,8.85
436,220,,,PBDB-T,,,IDTOT2F,,,,,,,,,,,,,,,,,0.85,20.87,72,12.79
437,221,,,PBDB-T,,,IDTIC,,,,,,,,,,,,,,,,,0.89,10.94,61.9,6.05
438,222,,,PBDB-T,,,ITIC,,,,,,,,,,,,,,,,,0.897,16.92,65.5,9.94
439,222,,,PBDB-T,,,ITCT,,,,,,,,,,,,,,,,,0.85,17.88,72.3,10.99
440,223,,,P3HT,,,IDT-RCN,,,,,,,,,,,,,,,,,0.69,7.92,63,3.42
441,223,,,P3HT,,,IDT-CA,,,,,,,,,,,,,,,,,0.84,7.77,64,4.19
442,224,,,PBDB-T,,,IDTO-T-4F,,,,,,,,,,,,,,,,,0.864,20.12,72.7,12.62
443,224,,,PBDB-T,,,IDTO-Se-4F,,,,,,,,,,,,,,,,,0.831,18.55,69.2,10.67
444,224,,,PBDB-T,,,IDTO-TT-4F,,,,,,,,,,,,,,,,,0.856,17.21,69.4,10.21
445,225,,,PBDB-T,,,IDT2Se,,,,,,,,,,,,,,,,,0.88,17.31,59.8,9.11
446,225,,,PBDB-T,,,IDT2Se-4F,,,,,,,,,,,,,,,,,0.79,21.35,65.4,11.03
548,225,,,PBDB-T,,,IDT2Se,,,,,,,,,,,,,,,,,0.89,17.49,60.8,9.36
549,225,,,PBDB-T,,,IDT2Se-4F,,,,,,,,,,,,,,,,,0.79,21.49,65.9,11.19
447,226,,,PBDT-Se-TAZ,,,ITIC,,,,,,,,,,,,,,,,,0.81,18.63,66.7,10.07
448,226,,,PBDTS-Se-TAZ,,,ITIC,,,,,,,,,,,,,,,,,0.84,19.51,75.1,12.31
449,227,,,PBDB-TF,,,IT-M,,,,,,,,,,,,,,,,,1.02,15.79,65,10.50
450,227,,,PBDB-TF,,,IT-4F,,,,,,,,,,,,,,,,,0.87,20.38,77,13.70
451,228,,,PBZ1,,,ITIC,,,,,,,,,,,,,,,,,0.74,15.7,49.8,5.80
452,228,,,PBZ-m-CF3,,,ITIC,,,,,,,,,,,,,,,,,0.94,18.4,60.2,10.40
453,229,,,PBDB-TF,,,DF-PCIC,,,,,,,,,,,,,,,,,0.92,16.01,72.42,10.97
454,229,,,PBDB-TF,,,HFO-PCIC,,,,,,,,,,,,,,,,,0.93,12.62,70.99,8.36
455,229,,,PBDB-TF,,,OF-PCIC,,,,,,,,,,,,,,,,,0.91,13.76,73.37,9.09
456,229,,,PBDB-T,,,HF-PCIC,,,,,,,,,,,,,,,,,0.91,15.66,72,10.14
457,230,,,PBDB-T,,,IF-TN,,,,,,,,,,,,,,,,,1.006,7.02,40.95,2.89
458,230,,,PBDB-T,,,IDT-TN,,,,,,,,,,,,,,,,,0.967,13.22,45.17,5.77
459,231,,,PBDB-T,,,IT-M,,,,,,,,,,,,,,,,,0.93,16.69,66.77,10.31
460,232,,,PBDB-T,,,ITIC-Cl4,,,,,,,,,,,,,,,,,0.74,21.5,60,9.60
461,233,,,PBDTS-TzBI,,,ITIC,,,,,,,,,,,,,,,,,0.94,16.8,56.2,9.04
462,233,,,PBDTS-TzBI,,,ITIC-Th,,,,,,,,,,,,,,,,,0.91,17.34,60.44,9.67
463,234,,,PBDB-T,,,NFBDT-Me,,,,,,,,,,,,,,,,,0.909,17.3,70,11.00
464,234,,,PBDB-T,,,NFBDT-F,,,,,,,,,,,,,,,,,0.793,19.28,69.5,10.62
465,234,,,PBDB-T,,,NFBDT,,,,,,,,,,,,,,,,,0.872,17.85,67.2,10.42
466,235,,,PBDB-T,,,IT-DM,,,,,,,,,,,,,,,,,0.95,15.95,68.7,10.41
467,236,,,PBDB-T,,,SN6IC,,,,,,,,,,,,,,,,,0.88,16.5,66,9.60
468,236,,,PBDB-T,,,SN6IC-4F,,,,,,,,,,,,,,,,,0.78,23.2,73,13.20
469,237,,,PTB7-Th,,,ITIC,,,,,,,,,,,,,,,,,0.825,14.4,66,7.80
470,237,,,PTB7-Th,,,IDTT-T,,,,,,,,,,,,,,,,,1.015,15.7,57,9.10
471,238,link,,PBDB-T,,,IDT-TBA,,,,,,,,,,,,,,,,,1,11.2,57,6.40
472,238,link,,PBDB-T,,,IDTT-TBA,,,,,,,,,,,,,,,,,1.03,11.6,61,7.30
473,239,,,PBDB-T,,,IDT-IC,,,,,,,,,,,,,,,,,0.83,10.54,49,4.69
474,240,link,,PBDB-T,,,O-NTIC,,,,,,,,,,,,,,,,,0.978,13.31,69.9,9.10
475,240,link,,PBDB-T,,,O-NTNC,,,,,,,,,,,,,,,,,0.942,15.98,73.4,11.00
476,241,,,PBDB-T,,,BTTFIC,,,,,,,,,,,,,,,,,0.935,17.74,54.3,9.00
477,241,,,PTB7-Th,,,BTTFIC,,,,,,,,,,,,,,,,,0.871,17.67,55,8.47
478,242,,,PM6,,,IT-4F,,,,,,,,,,,,,,,,,0.84,22.2,72.5,13.50
479,243,,,PBDB-T,,,NFTI,,,,,,,,,,,,,,,,,0.902,17.82,56,9.02
480,244,,,FTAZ,,,F5IC,,,,,,,,,,,,,,,,,0.704,14.88,53.7,5.60
481,244,,,FTAZ,,,F7IC,,,,,,,,,,,,,,,,,0.742,18.43,59.7,8.20
482,244,,,FTAZ,,,F9IC,,,,,,,,,,,,,,,,,0.873,20.2,66.4,11.70
483,245,,,PBDTTz-SBP,,,ITIC,,,,,,,,,,,,,,,,,0.914,18.52,71.43,12.09
484,245,,,PBDTTz-BP,,,ITIC,,,,,,,,,,,,,,,,,0.832,17.96,61.56,9.20
485,246,,,PJ1,,,m-ITIC,,,,,,,,,,,,,,,,,1.031,11.1,56,6.41
486,246,,,PJ1,,,IDIC,,,,,,,,,,,,,,,,,0.958,12,53.6,6.18
487,246,,,PJ2,,,m-ITIC,,,,,,,,,,,,,,,,,0.988,16.8,62.3,10.34
488,246,,,PJ2,,,IDIC,,,,,,,,,,,,,,,,,0.939,17,75.3,12.01
489,246,,,PJ3,,,m-ITIC,,,,,,,,,,,,,,,,,0.96,12.7,63.5,7.76
490,246,,,PJ3,,,IDIC,,,,,,,,,,,,,,,,,0.908,12.8,69.8,8.11
491,247,,,2D-PBTCl,,,ITIC,,,,,,,,,,,,,,,,,0.91,15.79,61.32,8.81
492,247,,,2D-PBTCl2,,,ITIC,,,,,,,,,,,,,,,,,0.87,14.52,58.43,7.38
493,247,,,PTB7-Th,,,ITIC,,,,,,,,,,,,,,,,,0.82,14.76,57.09,6.91
494,248,,,PBClT,,,ITIC,,,,,,,,,,,,,,,,,1.01,13.95,60.05,8.46
495,249,,,PBDB-T,,,BDCPDT-IC,,,,,,,,,,,,,,,,,0.86,16.56,65.52,9.33
496,249,,,PBDB-T,,,BDCPDT-FIC,,,,,,,,,,,,,,,,,0.7,19.12,60.67,8.12
497,250,,,PBFTT,,,ITIC,,,,,,,,,,,,,,,,,0.94,16,60.5,9.10
498,251,,,PBDB-O,,,ITIC,,,,,,,,,,,,,,,,,0.846,11.8,43.3,4.35
499,251,,,PBDB-T,,,ITIC,,,,,,,,,,,,,,,,,0.899,16.8,74.2,11.21
500,252,,,PBDB-T,,,BDTIT-M,,,,,,,,,,,,,,,,,0.903,17.56,71.3,11.31
501,252,,,PBDB-T,,,BDTThIT-M,,,,,,,,,,,,,,,,,0.942,18.03,71.4,12.12
508,252,,,PBZ,,,ITIC,,,,,,,,,,,,,,,,,0.79,17.2,59,8.00
509,252,,,PFBZ,,,ITIC,,,,,,,,,,,,,,,,,0.89,18.8,62,10.40
510,252,,,J51,,,ITIC,,,,,,,,,,,,,,,,,0.84,14.08,61,7.03
511,252,,,J60,,,ITIC,,,,,,,,,,,,,,,,,0.92,9.78,57.45,5.17
512,252,,,J61,,,ITIC,,,,,,,,,,,,,,,,,0.91,14.95,66.55,9.15
502,253,,,PTB7,,,IEICO-4F,,,,,,,,,,,,,,,,,0.54,14.73,28.92,2.30
503,253,,,PTB7-Th,,,IEICO-4F,,,,,,,,,,,,,,,,,0.72,23.21,69.41,11.60
504,254,,,PBO,,,ITIC,,,,,,,,,,,,,,,,,0.92,14.3,54,7.10
505,255,,,PBDB-T,,,TTIC-M,,,,,,,,,,,,,,,,,0.83,19.07,63,9.85
506,255,,,PBDB-T,,,TTIC,,,,,,,,,,,,,,,,,0.8,20.58,66,10.73
507,255,,,PBDB-T,,,TTIC-F,,,,,,,,,,,,,,,,,0.71,21.26,63,9.38
513,256,,,J71,,,ITIC,,,,,,,,,,,,,,,,,0.96,14.81,63.63,9.03
514,257,,,FTAZ,,,ITIC,,,,,,,,,,,,,,,,,0.911,16.71,58,8.77
515,257,,,HTAZ,,,ITIC,,,,,,,,,,,,,,,,,0.851,13.03,40.8,4.50
517,258,,,PTB7-Th,,,IFT-ECA,,,,,,,,,,,,,,,,,0.76,0.2,23.6,0.03
518,258,,,PTB7-Th,,,IFT-M,,,,,,,,,,,,,,,,,0.76,0.8,24.9,0.15
519,258,,,PTB7-Th,,,IFT-IC,,,,,,,,,,,,,,,,,1.03,8,50.3,4.14
520,258,,,PTB7-Th,,,IFT-TH,,,,,,,,,,,,,,,,,0.9,13.2,60.2,7.16
521,259,link,,PBDB-T,,,IT-M,,,,,,,,,,,,,,,,,0.961,16.69,70,11.50
522,260,,,PTB7-Th,,,4TIC,,,,,,,,,,,,,,,,,0.78,18.8,72,10.43
523,260,,,PTB7-Th,,,ITIC,,,,,,,,,,,,,,,,,0.83,15.18,57,7.28
524,261,,,TBF-BDD,,,ITIC,,,,,,,,,,,,,,,,,0.85,14.94,56,7.13
525,261,,,TBF-BT,,,ITIC,,,,,,,,,,,,,,,,,0.81,13.89,63,7.03
526,262,,,PBT,,,CzC6C8,,,,,,,,,,,,,,,,,0.99,8.24,41,3.30
527,262,,,PBT,,,CZC8,,,,,,,,,,,,,,,,,1.03,9,50,4.64
528,262,,,PTB7-Th,,,CZC8,,,,,,,,,,,,,,,,,0.98,11.24,45,4.91
529,262,,,PTFBDT,,,CZC8,,,,,,,,,,,,,,,,,1.16,7.99,51,4.67
530,263,,,PBDB-T,,,IDTC,,,,,,,,,,,,,,,,,0.917,16.56,61.61,9.35
531,263,,,PBDB-T,,,IDTO,,,,,,,,,,,,,,,,,0.943,16.25,65.41,10.02
532,264,,,PTB7-Th,,,BTA7,,,,,,,,,,,,,,,,,1.05,10.44,42,4.60
533,264,,,PTB7-Th,,,BTA1,,,,,,,,,,,,,,,,,0.93,0.2,29,0.06
534,264,,,PTB7-Th,,,BTA2,,,,,,,,,,,,,,,,,1.01,0.05,27,0.01
535,265,,,P3HT,,,BTA1,,,,,,,,,,,,,,,,,1.02,7.34,70,5.24
536,265,,,P3HT,,,BTA2,,,,,,,,,,,,,,,,,1.22,6.15,60,4.50
537,266,,,P3HT,,,BT2,,,,,,,,,,,,,,,,,0.97,7.59,67,4.93
538,266,,,P3HT,,,BT2b,,,,,,,,,,,,,,,,,0.92,10.02,66,6.08
539,267,,,PBDB-T,,,CDTCN,,,,,,,,,,,,,,,,,0.96,11.26,57.58,6.23
540,268,,,PTB7-Th,,,IHIC,,,,,,,,,,,,,,,,,0.754,19.01,68.1,9.77
541,269,,,PBDB-T,,,ITIC,,,,,,,,,,,,,,,,,0.88,13.8,59.8,7.40
542,270,,,PBDTTT-C-T,,,IDT-2BM,,,,,,,,,,,,,,,,,0.766,10.1,55.1,4.26
543,270,,,PBDTTT-C-T,,,IDTT-2BM,,,,,,,,,,,,,,,,,0.851,9.87,57.2,4.81
544,271,,,PffQx-T,,,ITIC,,,,,,,,,,,,,,,,,0.87,16.33,59.6,8.47
545,271,,,PffQx-PS,,,ITIC,,,,,,,,,,,,,,,,,0.97,14.96,62.9,9.12
550,272,,,P3HT,,,IDTBR,,,,,,,,,,,,,,,,,0.913,12.8,65.7,5.89
551,273,,,PBDB-T,,,ITIC,,,,,,,,,,,,,,,,,0.831,14.5,71.1,8.60
554,274,,,PBDB-T,,,ITIC,,,,,,,,,,,,,,,,,0.87,19.11,64.15,10.53
555,275,,,PTB7-Th,,,IDTBR,,,,,,,,,,,,,,,,,0.992,17.7,57.3,10.10
556,275,,,PTB7-Th,,,IEICO,,,,,,,,,,,,,,,,,0.883,14.8,61.2,7.95
557,275,,,PTB7-Th,,,IEICO-4F,,,,,,,,,,,,,,,,,0.707,26.6,66,12.40
562,276,,,J101,,,ITIC,,,,,,,,,,,,,,,,,0.951,17.7,73.65,12.47
563,276,,,J101,,,ZITI,,,,,,,,,,,,,,,,,0.937,21.25,72.48,14.43
564,276,,,J71,,,ZITI,,,,,,,,,,,,,,,,,0.912,20.23,69.49,12.82
565,277,,,PTB7-Th,,,DICTF-C10,,,,,,,,,,,,,,,,,0.865,19.255,50,6.93