Folder: Beyond-Molecular-Structure-ML-for-OPV-Materials-Devices/ml_for_opvs/data/raw/OPV_Min

File: FINAL Machine Learning OPV Parameters - ML Training Data.csv
ref,ref number from paper,reference link,DOI,Donor Molecule,Donor PDI,Donor Mn (kDa),Donor Mw (kDa),HOMO_D (eV),LUMO_D (eV),Ehl_D (eV),Eg_D (eV),Acceptor Molecule,HOMO_A (eV),LUMO_A (eV),Ehl_A (eV),Eg_A (eV),D:A ratio (m/m),solvent,Active layer spin coating speed (rpm),total solids conc. (mg/mL),solvent additive,solvent additive conc. (% v/v),active layer thickness (nm),temperature of thermal annealing,annealing time (min),hole contact layer,HTL energy level (eV),HTL thickness (nm),electron contact layer,ETL enegy level (eV),ETL thickness (nm),hole mobility blend (cm^2 V^-1 s^-1),electron mobility blend (cm^2 V^-1 s^-1),effective mobility,Langevin prefactor,Voc vs ln(I) slope,Voc (V),Jsc (mA cm^-2),FF (%),PCE (%),calc_PCE
1,5,link,10.1002/aenm.201801214,PBDT-TT,1.71,136.7,,-5.23,-3.34,-1.89,1.88,6TIC,-5.45,-3.94,-1.51,1.37,1:1.5,DCB,2500,25,_,0,100,25,0,PEDOT:PSS,,,C60-bissalt,,,6.06E-05,3.04E-05,,,,0.812,19.1,61,9.46,946.0612
52,5,link,10.1002/aenm.201801214,PBDT-TT,1.71,136.7,,-5.23,-3.34,-1.89,1.88,ITIC,-5.6,-3.86,-1.74,1.59,1:1.5,DCB,2500,25,_,0,100,25,0,PEDOT:PSS,,,C60-bissalt,,,9.28E-05,4.21E-05,,,,0.849,15.8,65,8.72,871.923
63,5,link,10.1002/aenm.201801214,PBDT-TT,1.71,136.7,,-5.23,-3.34,-1.89,1.88,IT-M,-5.58,-3.82,-1.76,1.61,1:1.5,DCB,2500,25,_,0,100,25,0,PEDOT:PSS,,,C60-bissalt,,,1.43E-04,5.50E-05,,,,0.904,16.5,67,9.99,999.372
2,6,link,10.1016/j.scib.2018.05.025,J71,,,,-5.44,-3.45,-1.99,1.6,A201,-5.69,-3.93,-1.76,1.64,1:1,CF,,,_,0,,25,0,PEDOT:PSS,,,Ca,,20,9.56E-04,5.17E-04,,,,0.88,13.15,67.15,9.36,777.0598
3,7,link,10.1002/aenm.201801582,J52,,,,-5.13,-3.22,-1.91,1.91,BTA13,-5.34,-3.62,-1.72,1.72,1:1,CF,,12,CN,0.5,105,170,,PEDOT:PSS,,30,Ca,,20,5.86E-04,2.80E-04,,,1.173,1.05,12.7,58.66,7.82,782.2311
4,7,link,10.1002/aenm.201801582,J52-F,1.87,24.6,45.8,-5.29,-3.38,-1.91,1.92,BTA13,-5.34,-3.62,-1.72,1.72,1:1,CF,1000,12,CN,0.5,108,150,,PEDOT:PSS,,30,Ca,,20,3.87E-04,6.15E-05,,,1.282,1.18,11.55,61.34,8.36,836.003
5,7,link,10.1002/aenm.201801582,J52-FS,2.64,19.6,51.8,-5.32,-3.39,-1.93,1.93,BTA13,-5.34,-3.62,-1.72,1.72,1:1,CF,,12,CN,0.5,96,150,,PEDOT:PSS,,30,Ca,,20,1.40E-04,1.73E-05,,,1.419,1.24,6.74,45.96,3.84,384.115
6,8,link,10.1039/C7EE00844A,J61,,,,-5.22,-3.21,-2.01,1.66,BT-IC,-5.32,-3.85,-1.47,1.43,1:1,CF,1500,16,_,0,130,120,10,PEDOT:PSS,,,PDINO,,10,6.15E-04,4.95E-04,,,,0.87,16.35,67.1,9.56,954.464
7,8,link,10.1039/C7EE00844A,J71,,,,-5.25,-3.18,-2.07,1.78,BT-IC,-5.32,-3.85,-1.47,1.43,1:1.5,CF,1500,16,_,0,130,120,10,PEDOT:PSS,,,PDINO,,10,3.53E-04,7.60E-04,,,,0.9,17.75,65.7,10.46,1049.56
8,9,link,10.1002/adma.201604155,J51,1.35,32,,-5.2,-3.01,-2.19,1.91,IDIC,-5.69,-3.91,-1.78,1.62,1:1,CF,3000,12,_,0,100,25,0,MoOx,,5,ZnO,,,3.40E-05,2.50E-04,,,,0.796,12.24,66,6.94,643.041
9,9,link,10.1002/adma.201604155,PDBT-T1,1.75,,342,-5.36,-3.43,-1.93,1.85,IDIC,-5.69,-3.91,-1.78,1.62,1:1,CF,3000,12,DIO,0.25,100,25,0,MoOx,,5,ZnO,,,6.30E-05,5.20E-04,,,,0.834,16.98,73.2,10.37,1036.61
10,9,link,10.1002/adma.201604155,PDCBT,1.62,24.8,40.2,-5.32,-3.3,-2.02,1.9,IDIC,-5.69,-3.91,-1.78,1.62,1:1,CF,3000,12,_,0,100,25,0,MoOx,,5,ZnO,,,1.70E-05,1.20E-04,,,,0.814,11.31,64.1,6.28,590.126
11,9,link,10.1002/adma.201604155,PTB7-Th,,,,-5.2,-3.56,-1.64,1.58,IDIC,-5.69,-3.91,-1.78,1.62,1:1,CF,3000,12,_,0,100,25,0,MoOx,,5,ZnO,,,2.10E-05,1.70E-04,,,,0.806,10.9,56.1,5.24,492.861
12,9,link,10.1002/adma.201604155,PTFBDT-BZS,3.35,66.8,223.6,-5.43,-3.58,-1.85,1.81,IDIC,-5.69,-3.91,-1.78,1.62,1:1,CF,3000,12,DIO,0.25,100,25,0,MoOx,,5,ZnO,,,6.20E-05,9.20E-04,,,,0.905,17.3,70.8,11.03,1108.48
13,10,link,10.1039/C7TA07049G,J61,,,,-5.32,-3.08,-2.24,1.93,IDT-IC,-5.69,-3.88,-1.81,1.72,1:1,CF,2800,,_,0,120,160,2,PEDOT:PSS,,40,PDINO,,10,4.85E-04,1.60E-04,,,,0.88,13.7,57.3,6.95,690.8088
81,10,link,10.1039/C7TA07049G,J61,,,,-5.32,-3.08,-2.24,1.93,SJ-IC,-5.61,-3.94,-1.67,1.49,1:1,CF,2800,,_,0,120,160,2,PEDOT:PSS,,40,PDINO,,10,3.10E-04,6.29E-04,,,,0.83,16.99,65.95,9.27,930.007
14,11,link,10.103/C8TA00764K,J71,,,,-5.4,-3.24,-2.16,1.54,IDTT-BH,-5.24,-3.86,-1.38,1.54,1:1.4,CF,,12,_,0,100,25,0,PEDOT:PSS,,,PDINO,,,2.02E-04,1.63E-04,,,,0.9,17.77,69.1,11.05,1105.12
15,11,link,10.103/C8TA00764K,PBDB-T,,,,-5.33,-2.92,-2.41,1.64,IDTT-BH,-5.24,-3.86,-1.38,1.54,1:0.8,CF,,9,_,0,90,100,,PEDOT:PSS,,,PDINO,,,1.88E-04,8.88E-04,,,,0.85,16.86,69.2,9.92,991.7052
16,11,link,10.103/C8TA00764K,PDCBT,,,,-5.31,-3.0,-2.3,1.5,IDTT-BH,-5.24,-3.86,-1.38,1.54,1:1.2,CF,,11,_,0,120,120,,PEDOT:PSS,,,PDINO,,,1.82E-04,1.33E-04,,,,0.88,17.15,68.6,10.35,1035.31
17,11,link,10.103/C8TA00764K,J71,,,,-5.4,-3.24,-2.16,1.54,IDTT-OBH,-5.41,-3.86,-1.55,1.57,1:1,CF,,10,_,0,100,25,0,PEDOT:PSS,,,PDINO,,,1.52E-04,4.09E-05,,,,0.92,14.75,61,8.02,827.77
18,11,link,10.103/C8TA00764K,PBDB-T,,,,-5.33,-2.92,-2.41,,IDTT-OBH,-5.41,-3.86,-1.55,1.57,1:0.8,CF,,9,_,0,90,110,,PEDOT:PSS,,,PDINO,,,1.84E-04,9.78E-05,,,,0.87,17.46,72,10.93,1093.69
19,11,link,10.103/C8TA00764K,PDCBT,,,,-5.31,-3.0,-2.3,,IDTT-OBH,-5.41,-3.86,-1.55,1.57,1:1.2,CF,,11,_,0,100,120,,PEDOT:PSS,,,PDINO,,,1.72E-04,8.18E-05,,,,0.91,13.97,64.8,8.24,823.783
20,12,link,10.1002/adma.201703080,J52,,,,-5.3,,-5.3,,IEICO-4Cl,-5.56,-4.23,-1.33,1.23,1:1.5,CB,,10,DIO,1,110,100,10,PEDOT:PSS,,,PFN-Br,,2,,,,,,0.7,23.8,60.7,10.10,1011.262
21,12,link,10.1002/adma.201703080,PBDB-T,,,,-5.3,,-5.3,,IEICO-4Cl,-5.56,-4.23,-1.33,1.23,1:1,CB,,10,DIO,1,100,100,10,PEDOT:PSS,,,PFN-Br,,2,,,,,,0.744,20.8,62.5,9.67,967.2
22,12,link,10.1002/adma.201703080,PTB7-Th,,,,-5.3,,-5.3,,IEICO-4Cl,-5.56,-4.23,-1.33,1.23,1:1.5,CB,,10,DIO,1,110,100,10,PEDOT:PSS,,,PFN-Br,,2,,,,,,0.727,22.8,62,10.30,1027.69
23,13,link,10.1021/acenergylett.8b00627,J52,1.86,57.5,,-5.21,-2.99,-2.22,1.96,IEICO-4F,-5.1098,-3.3772,-1.7326,1.29,1:1.3,CB,,24,_,0,85,130,10,MoOx,,10,ZnO,,40,1.11E-04,1.35E-04,,,,0.704,20.48,56.9,8.20,820.38
24,13,link,10.1021/acenergylett.8b00627,J52,1.86,57.5,,,,0,1.96,i-IEICO-4F,-5.0183,-3.3307,-1.6876,1.56,1:1,CB,,24,_,0,85,130,10,MoOx,,10,ZnO,,40,2.59E-04,3.83E-04,,,,0.849,22.86,67.9,13.18,1317.81
25,14,link,10.1002/adma.201706124,J71,2,23.5,,-5.4,-3.24,-2.16,,ITCPTC,-5.54,-3.45,-2.09,1.58,1:1,CF,3000,,_,0,110,150,2,PEDOT:PSS,,40,PDINO,,10,7.13E-04,5.31E-04,,,,0.896,17.52,74.1,11.63,1163.22
67,14,link,10.1002/adma.201706124,J71,2,23.5,,-5.4,-3.24,-2.16,,MeIC,-5.57,-3.92,-1.65,1.58,1:1,CF,3000,,_,0,110,150,2,PEDOT:PSS,,40,PDINO,,10,8.38E-04,7.39E-04,,,,0.918,18.41,74.2,12.54,1254.01
26,15,link,10.1007/s11426-016-0173-y,J40,2.6,58.9,,-5.4,-2.9,-2.5,1.95,ITIC,,,0,,1:1,CF,2500,16,_,0,,120,10,PEDOT:PSS,,40,PDINO,,10,3.70E-05,1.44E-04,,,,0.89,12.18,60.13,6.48,651.821
27,16,link,10.1002/adma.201601595,J50,,,,-5.13,-3.16,-1.97,1.88,ITIC,-5.48,-3.83,-1.65,1.59,1:2,CF,1800,18,_,0,,150,10,PEDOT:PSS,,40,PDINO,,10,6.30E-05,2.20E-05,,0.895,,0.71,12.93,53,4.80,486.5559
28,16,link,10.1002/adma.201601595,J51,,,,-5.26,-3.08,-2.18,1.91,ITIC,-5.48,-3.83,-1.65,1.59,1:2,CF,1800,18,_,0,,150,10,PEDOT:PSS,,40,PDINO,,10,2.05E-04,8.60E-05,,0.967,,0.82,16.47,69,9.26,931.8726
29,17,link,10.1021/jacs.6b01744,J52,1.86,57.5,,-5.21,-2.99,-2.22,1.96,ITIC,-5.48,-3.83,-1.65,1.57,1:1,CF,2500,20,_,0,,100,10,PEDOT:PSS,,40,PDINO,,10,,,,,,0.73,13.11,57.8,5.51,553.163
30,17,link,10.1021/jacs.6b01744,J60,2.22,23.9,,-5.32,-3.08,-2.24,1.93,ITIC,-5.48,-3.83,-1.65,1.57,1:1,CF,2500,20,_,0,,100,10,PEDOT:PSS,,40,PDINO,,10,,,,,,0.91,16.33,60.38,8.97,897.265
[...]
534,264,link,10.1016/j.scib.2017.08.027,PTB7-Th,,,,-5.2,-3.6,-1.6,1.58,BTA2,-5.43,-3.38,-2.05,2,1:2,CF,,15,DPE,3,,80,,PEDOT:PSS,,,Ca,,,,,,,,1.01,0.05,27,0.01,1.3635
535,265,link,10.1021/acsmacrolett.7b00097,P3HT,,,,-5,-3.1,-1.9,1.9,BTA1,-5.51,-3.55,-1.96,,1:0.6,CF,,15,CN,0.8,,100,10,PEDOT:PSS,,,Ca,,,1.80E-06,3.20E-05,,,,1.02,7.34,70,5.24,524.076
536,265,link,10.1021/acsmacrolett.7b00097,P3HT,,,,-5,-3.1,-1.9,1.9,BTA2,-5.43,-3.38,-2.05,2,0.6:1,CF,,15,DIO,0.8,,100,10,PEDOT:PSS,,,Ca,,,4.90E-04,3.40E-04,,,,1.22,6.15,60,4.50,450.18
537,266,link,10.1002/solr.201700166,P3HT,,,,-5,-3.1,-1.9,,BT2,-5.5,-3.53,-1.97,1.82,1.5:1,CF,,15,_,0,,150,,PEDOT:PSS,,,Ca,,,1.20E-04,4.60E-05,,,,0.97,7.59,67,4.93,493.2741
538,266,link,10.1002/solr.201700166,P3HT,,,,-5,-3.1,-1.9,,BT2b,-5.41,-3.56,-1.85,1.75,1:1,CF,,15,_,0,,150,,PEDOT:PSS,,,Ca,,,6.10E-05,8.40E-05,,,,0.92,10.02,66,6.08,608.4144
539,267,link,10.1016/j.dyepig.2017.05.026,PBDB-T,,,,-5.33,-2.92,-2.41,,CDTCN,-5.39,-3.8,-1.59,1.48,1:1,CB,1200,20,DIO,0.75,107,80,10,MoOx,,,ZnO,,,6.98E-05,1.87E-04,,,,0.96,11.26,57.58,6.23,622.417
540,268,link,10.1002/adma.201701308,PTB7-Th,,,,-5.2,-3.59,-1.61,,IHIC,-5.45,-3.93,-1.52,,1:1.5,DCB,,20,CN,1,100,25,0,MoOx,,,ZnO,,,6.80E-04,1.20E-03,,,,0.754,19.01,68.1,9.77,976.114
541,269,link,10.1021/acsphotonics.7b00618,PBDB-T,,,,-5.33,-2.92,-2.41,,ITIC,-5.96,-3.98,-1.98,,1:1,CB,,20,DIO,0.5,100,25,0,MoOx,,,ZnO,,,,,,,,0.88,13.8,59.8,7.40,726.2112
542,270,link,10.1039/C5TA05901A,PBDTTT-C-T,,,,-5.11,-3.25,-1.86,,IDT-2BM,-5.6,-4.8,-0.8,1.6,1.5:1,o-DCB,,30,CN,6,,25,0,PEDOT:PSS,,,Ca,,,2.50E-04,1.00E-05,,,,0.766,10.1,55.1,4.26,426.287
543,270,link,10.1039/C5TA05901A,PBDTTT-C-T,,,,-5.11,-3.25,-1.86,,IDTT-2BM,-5.5,-3.8,-1.7,1.54,1.5:1,o-DCB,,30,DIO,3,,25,0,PEDOT:PSS,,,Ca,,,4.10E-04,1.30E-05,,,,0.851,9.87,57.2,4.81,480.444
544,271,link,10.1016/j.nanoen.2016.10.008,PffQx-T,1.9,11,20.9,-5.36,-3.56,-1.8,1.73,ITIC,-5.48,-3.83,-1.65,1.57,1:1.5,CF,,20,_,0,100,170,10,PEDOT:PSS,,,PDINO,,,2.31E-04,1.73E-04,,,,0.87,16.33,59.6,8.47,846.743
545,271,link,10.1016/j.nanoen.2016.10.008,PffQx-PS,2,13,26,-5.4,-3.55,-1.85,1.81,ITIC,-5.48,-3.83,-1.65,1.57,1:1,CF,,20,DIO,0.1,100,90,10,PEDOT:PSS,,,PDINO,,,4.55E-05,2.41E-05,,,,0.97,14.96,62.9,9.12,912.754
551,273,link,10.1021/acsami.8b20493,PBDB-T,,,,-5.28,-3.48,-1.8,,ITIC,-5.51,-3.78,-1.73,,1:1,CB,1500,20,_,0,100,160,10,MoOx,,,ZnO,,,1.50E-04,5.10E-05,,,,0.831,14.5,71.1,8.60,856.719
554,274,link,10.1088/1361-6463/ab092b,PBDB-T,,,,,,0,,ITIC,,,0,,1:1,CB,1400,20,DIO,0.5,100,25,0,MoOx,,,ZnO,,,3.87E-04,4.45E-04,,,,0.87,19.11,64.15,10.53,1066.54
555,275,link,10.1117/12.2316,PTB7-Th,,,,,,0,,O-IDTBR,,,0,,,,,,,,,,,,,,,,,,,,,,0.992,17.7,57.3,10.10,1006.1
556,275,link,10.1117/12.2316,PTB7-Th,,,,,,0,,IEICO,,,0,,,,,,,,,,,,,,,,,,,,,,0.883,14.8,61.2,7.95,799.786
557,275,link,10.1117/12.2316,PTB7-Th,,,,,,0,,IEICO-4F,,,0,,,,,,,,,,,,,,,,,,,,,,0.707,26.6,66,12.40,1241.21
562,276,link,10.1039/C9TA03272J,J101,1.89,28.1,53.109,-5.3,-3.5,-1.8,1.53,ITIC,-5.56,-3.79,-1.77,,1:1,CF,,16,_,0,98,150,,PEDOT:PSS,,,PDINO,,,,,,,,0.951,17.7,73.65,12.47,1239.73
563,276,link,10.1039/C9TA03272J,J101,1.89,28.1,53.109,-5.3,-3.5,-1.8,1.53,ZITI,-5.53,-3.8,-1.73,,1:1,CF,,16,_,0,105,120,,PEDOT:PSS,,,PDINO,,,2.18E-04,1.27E-04,,,,0.937,21.25,72.48,14.43,1443.17
564,276,link,10.1039/C9TA03272J,J71,2,25.9,51.8,-5.27,-3.6,-1.67,,ZITI,-5.53,-3.8,-1.73,,1:1,CF,,16,_,0,98,25,0,PEDOT:PSS,,,PDINO,,,3.55E-04,4.52E-05,,,,0.912,20.23,69.49,12.82,1282.07
565,277,link,10.1021/acsaem.8b00012,PTB7-Th,,,,-5.22,-3.64,-1.58,,DICTF-C10,-5.67,-3.89,-1.78,1.76,2:3,o-DCB,,25,_,0,68,25,0,MoOx,,,ZnO,,,4.60E-05,2.30E-05,,,,0.865,19.255,50,6.93,832.779

File: Machine Learning OPV Parameters - device_params.csv
 ,ref number from paper,reference link,DOI,Donor Molecule,HOMO_D (eV),LUMO_D (eV),Acceptor Molecule,HOMO_A (eV),LUMO_A (eV),D:A ratio (m/m),solvent,total solids conc. (mg/mL),solvent additive,solvent additive conc. (% v/v),active layer thickness (nm),temperature of thermal annealing (leave gap if not annealed),hole contact layer,electron contact layer,hole mobility blend (cm^2 V^-1 s^-1),electron mobility blend,effective mobility,Langevin prefactor,Voc vs ln(I) slope,Voc (V),Jsc (mA cm^-2),FF (%),PCE (%),calc_PCE
1,5,link,10.1002/aenm.201801214,PBDT-TT,-5.23,-3.34,6TIC,-5.45,-3.94,01:01.5,DCB,25,,,100,,PEDOT:PSS,C60-bissalt,6.06E-05,3.04E-05,,,,0.812,19.1,61,9.46,9.461
52,5,link,10.1002/aenm.201801214,PBDT-TT,-5.23,-3.34,ITIC,-5.6,-3.86,01:01.5,DCB,25,,,100,,PEDOT:PSS,C60-bissalt,9.28E-05,4.21E-05,,,,0.849,15.8,65,8.72,8.719
63,5,link,10.1002/aenm.201801214,PBDT-TT,-5.23,-3.34,IT-M,-5.58,-3.82,01:01.5,DCB,25,,,100,,PEDOT:PSS,C60-bissalt,1.43E-04,5.50E-05,,,,0.904,16.5,67,9.99,9.994
2,6,link,10.1016/j.scib.2018.05.025,J71,-5.44,-3.45,A201,-5.69,-3.93,1:01,CF,,,,,,PEDOT:PSS,Ca,9.56E-04,5.17E-04,,,,0.88,13.15,67.15,9.36,7.771
3,7,link,10.1002/aenm.201801582,J52,-5.13,-3.22,BTA13,-5.34,-3.62,1:01,CF,12,CN,0.5,105,170,PEDOT:PSS,Ca,5.86E-04,2.80E-04,,,1.173,1.05,12.7,58.66,7.82,7.822
4,7,link,10.1002/aenm.201801582,J52-F,-5.29,-3.38,BTA13,-5.34,-3.62,1:01,CF,12,CN,0.5,108,150,PEDOT:PSS,Ca,3.87E-04,6.15E-05,,,1.282,1.18,11.55,61.34,8.36,8.36
5,7,link,10.1002/aenm.201801582,J52-FS,-5.32,-3.39,BTA13,-5.34,-3.62,1:01,CF,12,CN,0.5,96,150,PEDOT:PSS,Ca,1.40E-04,1.73E-05,,,1.419,1.24,6.74,45.96,3.84,3.841
6,8,link,10.1039/C7EE00844A,J61,-5.22,-3.21,BT-IC,-5.32,-3.85,1:01,CF,16,,,130,120,PEDOT:PSS,PDINO,6.15E-04,4.95E-04,,,,0.87,16.35,67.1,9.56,9.545
7,8,link,10.1039/C7EE00844A,J71,-5.25,-3.18,BT-IC,-5.32,-3.85,01:01.5,CF,16,,,130,120,PEDOT:PSS,PDINO,3.53E-04,7.60E-04,,,,0.9,17.75,65.7,10.46,10.496
8,9,link,10.1002/adma.201604155,J51,-5.2,-3.01,IDIC,-5.69,-3.91,1:01,CF,12,,,100,,MoOx,ZnO,3.40E-05,2.50E-04,,,,0.796,12.24,66,6.94,6.43
9,9,link,10.1002/adma.201604155,PDBT-T1,-5.36,-3.43,IDIC,-5.69,-3.91,1:01,CF,12,DIO,0.25,100,,MoOx,ZnO,6.30E-05,5.20E-04,,,,0.834,16.98,73.2,10.37,10.366
10,9,link,10.1002/adma.201604155,PDCBT,-5.32,-3.3,IDIC,-5.69,-3.91,1:01,CF,12,,,100,,MoOx,ZnO,1.70E-05,1.20E-04,,,,0.814,11.31,64.1,6.28,5.901
11,9,link,10.1002/adma.201604155,PTB7-Th,-5.2,-3.56,IDIC,-5.69,-3.91,1:01,CF,12,,,100,,MoOx,ZnO,2.10E-05,1.70E-04,,,,0.806,10.9,56.1,5.24,4.929
12,9,link,10.1002/adma.201604155,PTFBDT-BZS,-5.43,-3.58,IDIC,-5.69,-3.91,1:01,CF,12,DIO,0.25,100,,MoOx,ZnO,6.20E-05,9.20E-04,,,,0.905,17.3,70.8,11.03,11.085
13,10,link,10.1039/C7TA07049G,J61,-5.32,-3.08,IDT-IC,-5.69,-3.88,1:01,CF,,,,120,160,PEDOT:PSS,PDINO,4.85E-04,1.60E-04,,,,0.88,13.7,57.3,6.95,6.908
81,10,link,10.1039/C7TA07049G,J61,-5.32,-3.08,SJ-IC,-5.61,-3.94,1:01,CF,,,,120,160,PEDOT:PSS,PDINO,3.10E-04,6.29E-04,,,,0.83,16.99,65.95,9.27,9.3
14,11,link,10.103/C8TA00764K,J71,-5.4,-3.24,IDTT-BH,-5.24,-3.86,01:01.4,CF,12,,,100,,PEDOT:PSS,PDINO,2.02E-04,1.63E-04,,,,0.9,17.77,69.1,11.05,11.051
15,11,link,10.103/C8TA00764K,PBDB-T,-5.33,-2.92,IDTT-BH,-5.24,-3.86,01:00.8,CF,9,,,90,100,PEDOT:PSS,PDINO,1.88E-04,8.88E-04,,,,0.85,16.86,69.2,9.92,9.917
16,11,link,10.103/C8TA00764K,PDCBT,-5.31,-3,IDTT-BH,-5.24,-3.86,01:01.2,CF,11,,,120,120,PEDOT:PSS,PDINO,1.82E-04,1.33E-04,,,,0.88,17.15,68.6,10.35,10.353
17,11,link,10.103/C8TA00764K,J71,-5.4,-3.24,IDTT-OBH,-5.41,-3.86,1:01,CF,10,,,100,,PEDOT:PSS,PDINO,1.52E-04,4.09E-05,,,,0.92,14.75,61,8.02,8.278
18,11,link,10.103/C8TA00764K,PBDB-T,-5.33,-2.92,IDTT-OBH,-5.41,-3.86,01:00.8,CF,9,,,90,110,PEDOT:PSS,PDINO,1.84E-04,9.78E-05,,,,0.87,17.46,72,10.93,10.937
19,11,link,10.103/C8TA00764K,PDCBT,-5.31,-3,IDTT-OBH,-5.41,-3.86,01:01.2,CF,11,,,100,120,PEDOT:PSS,PDINO,1.72E-04,8.18E-05,,,,0.91,13.97,64.8,8.24,8.238
20,12,link,10.1002/adma.201703080,J52,,,IEICO-4Cl,-5.56,-4.23,01:01.5,CB,10,DIO,1,110,150,PEDOT:PSS,PFN-Br,,,,,,0.7,23.8,60.7,10.1,10.113
21,12,link,10.1002/adma.201703080,PBDB-T,,,IEICO-4Cl,-5.56,-4.23,1:01,CB,10,DIO,1,100,150,PEDOT:PSS,PFN-Br,,,,,,0.744,20.8,62.5,9.67,9.672
22,12,link,10.1002/adma.201703080,PTB7-Th,,,IEICO-4Cl,-5.56,-4.23,01:01.5,CB,10,DIO,1,110,150,PEDOT:PSS,PFN-Br,,,,,,0.727,22.8,62,10.3,10.277
23,13,link,10.1021/acenergylett.8b00627,J52,,,IEICO-4F,-5.1098,-3.3772,01:01.3,CB,24,,,85,130,MoOx,ZnO,1.11E-04,1.35E-04,,,,0.704,20.48,56.9,8.2,8.204
24,13,link,10.1021/acenergylett.8b00627,J52,,,i-IEICO-4F,-5.0183,-3.3307,1:01,CB,24,,,85,130,MoOx,ZnO,2.59E-04,3.83E-04,,,,0.849,22.86,67.9,13.18,13.178
25,14,link,10.1002/adma.201706124,J71,-5.4,-3.24,ITCPTC,-5.54,-3.45,1:01,CF,,,,110,150,PEDOT:PSS,PDINO,7.13E-04,5.31E-04,,,,0.896,17.52,74.1,11.63,11.632
67,14,link,10.1002/adma.201706124,J71,-5.4,-3.24,MeIC,-5.57,-3.92,1:01,CF,,,,110,150,PEDOT:PSS,PDINO,8.38E-04,7.39E-04,,,,0.918,18.41,74.2,12.54,12.54
26,15,link,10.1007/s11426-016-0173-y,J40,-5.4,-2.9,ITIC,,,1:01,CF,16,,,,120,PEDOT:PSS,PDINO,3.70E-05,1.44E-04,,,,0.89,12.18,60.13,6.48,6.518
27,16,link,10.1002/adma.201601595,J50,-5.13,-3.16,ITIC,-5.48,-3.83,1:02,CF,18,,,,150,PEDOT:PSS,PDINO,6.30E-05,2.20E-05,,0.895,,0.71,12.93,53,4.8,4.866
28,16,link,10.1002/adma.201601595,J51,-5.26,-3.08,ITIC,-5.48,-3.83,1:02,CF,18,,,,150,PEDOT:PSS,PDINO,2.05E-04,8.60E-05,,0.967,,0.82,16.47,69,9.26,9.319
29,17,link,10.1021/jacs.6b01744,J52,-5.21,-2.99,ITIC,-5.48,-3.83,1:01,CF,20,,,,100,PEDOT:PSS,PDINO,,,,,,0.73,13.11,57.8,5.51,5.532
30,17,link,10.1021/jacs.6b01744,J60,-5.32,-3.08,ITIC,-5.48,-3.83,1:01,CF,20,,,,100,PEDOT:PSS,PDINO,,,,,,0.91,16.33,60.38,8.97,8.973
31,17,link,10.1021/jacs.6b01744,J61,-5.32,-3.08,ITIC,-5.48,-3.83,1:01,CF,20,,,,100,PEDOT:PSS,PDINO,4.96E-04,2.16E-04,,,,0.89,17.43,61.48,9.53,9.537
32,18,link,10.1021/jacs.6b09110,J61,,,ITIC,-5.54,-3.84,1:01,CF,20,,,120,130,PEDOT:PSS,PDINO,2.07E-04,1.05E-04,,,,0.898,17.97,65.49,10.57,10.568
70,18,link,10.1021/jacs.6b09110,J61,,,m-ITIC,-5.52,-3.82,1:01,CF,20,,,120,130,PEDOT:PSS,PDINO,1.54E-04,1.30E-04,,,,0.912,18.31,70.55,11.77,11.781
33,19,link,10.1007/s11426-017-9030-9,J61-F,-5.45,-2.91,ITIC,-5.51,-3.83,01:01.5,CF,18,,,100,170,PEDOT:PSS,PDINO,7.40E-05,1.10E-04,,,,0.95,13.12,66.1,8.24,8.239
34,20,link,10.1021/acs.macromol.8b01036,J62,-5.31,-3.08,ITIC,-5.48,-3.83,1.5:1,CF,18,,,263,,PEDOT:PSS,PDINO,1.23E-04,4.95E-04,,,,0.904,16.12,62.36,9.09,9.087
35,20,link,10.1021/acs.macromol.8b01036,J63,-5.28,-3.04,ITIC,-5.48,-3.83,1.5:1,CF,18,,,166.5,,PEDOT:PSS,PDINO,8.18E-05,3.37E-04,,,,0.882,15.72,53.11,7.38,7.364
36,20,link,10.1021/acs.macromol.8b01036,J64,-5.33,-3.09,ITIC,-5.48,-3.83,1.5:1,CF,18,,,321,,PEDOT:PSS,PDINO,6.54E-05,3.55E-04,,,,0.908,15.22,54.32,7.51,7.507
37,21,link,10.1002/aenm.201700746,J81,-5.43,-2.98,m-ITIC,-5.52,-3.82,1:01,CF,18,,,,160,PEDOT:PSS,PDINO,3.66E-04,4.06E-04,,,,0.95,15.27,73.08,10.6,10.601
76,21,link,10.1002/aenm.201700746,J81,-5.43,-2.98,m-ITIC,-5.52,-3.82,1:01,CF,18,,,,160,PEDOT:PSS,PDINO,4.08E-04,4.67E-04,,,,0.96,16.47,69.83,11.05,11.041
38,22,link,10.1002/aenm.201700834,PBDT(T)[2F]T,,,ITIC,-5.48,-3.83,5:05,CB,,,,65,160,MoOx,ZnO,3.00E-05,1.20E-05,,,,0.94,16.9,62,9.8,9.849
39,22,link,10.1002/aenm.201700834,PBDT[2F]T,,,ITIC,-5.48,-3.83,6:04,CB,,,,70,,MoOx,ZnO,1.50E-05,1.00E-05,,,,0.94,11.6,53,5.8,5.779
[...]
526,262,link,,PBT,-5.43,-3.65,CzC6C8,-5.79,-3.79,1:03,CB,25,,,97,130,MoOx,ZnO,1.23E-06,2.88E-06,,,,0.99,8.24,41,3.3,3.345
527,262,link,,PBT,-5.43,-3.65,CZC8,-5.72,-3.74,1:03,CB,25,,,103,130,MoOx,ZnO,2.02E-06,3.27E-06,,,,1.03,9,50,4.64,4.635
528,262,link,,PTB7-Th,-5.23,-3.65,CZC8,-5.72,-3.74,1:03,CB,25,,,102,100,MoOx,ZnO,4.73E-05,4.89E-05,,,,0.98,11.24,45,4.91,4.957
529,262,link,,PTFBDT,-5.5,-3.69,CZC8,-5.72,-3.74,1:03,CB,25,,,94,150,MoOx,ZnO,1.88E-06,1.60E-06,,,,1.16,7.99,51,4.67,4.727
530,263,link,,PBDB-T,-5.33,-3.53,IDTC,-5.29,-3.37,1:01,CF,,,,100,160,PEDOT:PSS,PDINO,7.54E-05,1.48E-04,,,,0.917,16.56,61.61,9.35,9.356
531,263,link,,PBDB-T,-5.33,-3.53,IDTO,-5.11,-3.38,1:01,CF,,,,100,160,PEDOT:PSS,PDINO,1.10E-04,1.78E-04,,,,0.943,16.25,65.41,10.02,10.023
532,264,link,,PTB7-Th,-5.2,-3.6,BTA7,-5.56,-3.66,1:02,CF,15,DPE,3,,80,PEDOT:PSS,Ca,,,,,,1.05,10.44,42,4.6,4.604
533,264,link,,PTB7-Th,-5.2,-3.6,BTA1,-5.51,-3.55,1:02,CF,15,DPE,3,,80,PEDOT:PSS,Ca,,,,,,0.93,0.2,29,0.06,0.054
534,264,link,,PTB7-Th,-5.2,-3.6,BTA2,-5.43,-3.38,1:02,CF,15,DPE,3,,80,PEDOT:PSS,Ca,,,,,,1.01,0.05,27,0.01,0.014
535,265,link,,P3HT,-5,-3.1,BTA1,-5.51,-3.55,01:00.6,CF,,CN,0.8,,100,PEDOT:PSS,Ca,,,,,,1.02,7.34,70,5.24,5.241
536,265,link,,P3HT,-5,-3.1,BTA2,-5.43,-3.38,0.6:1,CF,,DIO,0.8,,100,PEDOT:PSS,Ca,4.90E-04,3.40E-04,,,,1.22,6.15,60,4.5,4.502
537,266,link,,P3HT,-5,-3.1,BT2,-5.5,-3.53,1.5:1,CF,15,,,,150,PEDOT:PSS,Ca,1.20E-04,4.60E-05,,,,0.97,7.59,67,4.93,4.933
538,266,link,,P3HT,-5,-3.1,BT2b,-5.41,-3.56,1:01,CF,15,,,,150,PEDOT:PSS,Ca,6.10E-05,8.40E-05,,,,0.92,10.02,66,6.08,6.084
539,267,link,,PBDB-T,-5.33,-2.92,CDTCN,-5.39,-3.8,1:01,CB,20,DIO,0.75,107,80,MoOx,ZnO,6.98E-05,1.87E-04,,,,0.96,11.26,57.58,6.23,6.224
540,268,link,,PTB7-Th,-5.2,-3.59,IHIC,-5.45,-3.93,01:01.5,DCB,20,CN,1,100,,MoOx,ZnO,6.80E-04,1.20E-03,,,,0.754,19.01,68.1,9.77,9.761
541,269,link,,PBDB-T,-5.33,-2.92,ITIC,-5.96,-3.98,1:01,CB,20,DIO,0.5,100,,MoOx,ZnO,,,,,,0.88,13.8,59.8,7.4,7.262
542,270,link,,PBDTTT-C-T,-5.11,-3.25,IDT-2BM,-5.6,-4.8,1.5:1,o-DCB,30,CN,6,,,PEDOT:PSS,Ca,2.50E-04,1.00E-05,,,,0.766,10.1,55.1,4.26,4.263
543,270,link,,PBDTTT-C-T,-5.11,-3.25,IDTT-2BM,-5.5,-3.8,1.5:1,o-DCB,30,DIO,3,,,PEDOT:PSS,Ca,4.10E-04,1.30E-05,,,,0.851,9.87,57.2,4.81,4.804
544,271,link,,PffQx-T,-5.36,-3.56,ITIC,-5.48,-3.83,01:01.5,CF,20,,,100,170,PEDOT:PSS,PDINO,2.31E-04,1.73E-04,,,,0.87,16.33,59.6,8.47,8.467
545,271,link,,PffQx-PS,-5.4,-3.55,ITIC,-5.48,-3.83,1:01,CF,20,DIO,0.1,100,90,PEDOT:PSS,PDINO,4.55E-05,2.41E-05,,,,0.97,14.96,62.9,9.12,9.128
550,272,link,,P3HT,,,IDTBR,,,,CB,,BrA,,,,PEDOT:PSS,ZnO,,,,,,0.913,12.8,65.7,5.89,7.678
551,273,link,,PBDB-T,-5.28,-3.48,ITIC,-5.51,-3.78,1:01,CB,20,,,100,160,MoOx,ZnO,1.50E-04,5.10E-05,,,,0.831,14.5,71.1,8.6,8.567
554,274,link,,PBDB-T,,,ITIC,,,1:01,CB,20,DIO,0.5,100,,MoOx,ZnO,3.87E-04,4.45E-04,,,,0.87,19.11,64.15,10.53,10.665
555,275,link,,PTB7-Th,,,IDTBR,,,,,,,,,,,,,,,,,0.992,17.7,57.3,10.1,10.061
556,275,link,,PTB7-Th,,,IEICO,,,,,,,,,,,,,,,,,0.883,14.8,61.2,7.95,7.998
557,275,link,,PTB7-Th,,,IEICO-4F,,,,,,,,,,,,,,,,,0.707,26.6,66,12.4,12.412
562,276,link,,J101,-5.3,-3.5,ITIC,-5.56,-3.79,1:01,CF,16,,,98,150,PEDOT:PSS,PDINO,,,,,,0.951,17.7,73.65,12.47,12.397
563,276,link,,J101,-5.3,-3.5,ZITI,-5.53,-3.8,1:01,CF,16,,,105,120,PEDOT:PSS,PDINO,2.18E-04,1.27E-04,,,,0.937,21.25,72.48,14.43,14.432
564,276,link,,J71,-5.27,-3.6,ZITI,-5.53,-3.8,1:01,CF,16,,,98,,PEDOT:PSS,PDINO,3.55E-04,4.52E-05,,,,0.912,20.23,69.49,12.82,12.821
565,277,link,,PTB7-Th,,,DICTF-C10,-5.67,-3.89,2:03,o-DCB,10,,,68,,MoOx,ZnO,4.60E-05,2.30E-05,,,,0.865,19.255,50,6.93,8.328